Folder: Jun23cohortDataScienceAndAI/Nariman

File: datasets_615077_1099819_Concrete_test.csv
Cement (component 1)(kg in a m^3 mixture),Blast Furnace Slag (component 2)(kg in a m^3 mixture),Fly Ash (component 3)(kg in a m^3 mixture),Water  (component 4)(kg in a m^3 mixture),Superplasticizer (component 5)(kg in a m^3 mixture),Coarse Aggregate  (component 6)(kg in a m^3 mixture),Fine Aggregate (component 7)(kg in a m^3 mixture),Age (day),"Concrete compressive strength(MPa, megapascals) "
236.0,0.0,0.0,193.0,0.0,968.0,885.0,7,9.99051
290.35,0.0,96.18,168.08,9.41,961.18,865.0,14,34.6737
262.0,111.0,86.0,195.0,5.0,895.0,733.0,28,33.7154
190.68,0.0,125.4,162.14,7.77,1090.0,804.01,100,40.5688
297.8,137.2,106.9,201.3,6.0,878.4,655.3,28,53.5247
139.6,209.4,0.0,192.0,0.0,1047.0,806.9,360,44.698
298.1,0.0,107.0,186.4,6.1,879.0,815.2,28,42.6441
164.0,163.0,128.0,197.0,8.0,961.0,641.0,28,27.2343
275.0,180.0,120.0,162.0,10.35,830.0,765.0,28,76.2354
165.0,128.5,132.1,175.06,8.08,1005.8,746.6,28,46.3879
231.75,0.0,121.62,173.96,6.72,1056.4,778.45,28,33.7292
102.0,153.0,0.0,192.0,0.0,887.0,942.0,3,4.56502
135.7,203.5,0.0,185.7,0.0,1076.2,759.3,7,7.50701
475.0,0.0,0.0,228.0,0.0,932.0,594.0,7,38.6038
182.04,45.21,121.97,170.21,8.19,1059.4,780.65,28,31.2677
231.75,0.0,121.62,173.96,6.72,1056.4,778.45,3,15.4374
172.38,13.61,172.37,156.76,4.14,1006.3,856.4,3,21.291
295.8,0.0,0.0,185.7,0.0,1091.4,769.3,7,14.8437
265.0,111.0,86.0,195.0,6.0,833.0,790.0,28,41.5409
153.0,102.0,0.0,192.0,0.0,888.0,943.1,90,26.3228
181.9,272.8,0.0,185.7,0.0,1012.4,714.3,7,12.3726
307.0,0.0,0.0,193.0,0.0,968.0,812.0,28,27.5308
296.0,0.0,0.0,192.0,0.0,1085.0,765.0,28,21.6495
213.5,0.0,174.24,154.61,11.66,1052.3,775.48,3,17.3679
190.68,0.0,125.4,162.14,7.77,1090.0,804.01,3,15.0444
148.1,0.0,136.6,158.1,16.1,1001.8,830.1,28,17.9595
375.0,0.0,0.0,186.0,0.0,1038.0,758.0,7,26.0622
439.0,177.0,0.0,186.0,11.1,884.9,707.9,28,65.9966
236.0,157.0,0.0,192.0,0.0,972.6,749.1,3,13.5654
374.0,0.0,0.0,190.0,7.0,1013.0,730.0,28,39.0519
427.5,47.5,0.0,228.0,0.0,932.0,594.0,7,35.0764
213.5,0.0,174.24,154.61,11.66,1052.3,775.48,100,59.3018
331.0,0.0,0.0,192.0,0.0,978.0,825.0,3,13.5206
382.0,0.0,0.0,186.0,0.0,1111.0,784.0,7,11.466
500.0,0.0,0.0,140.0,4.0,966.0,853.0,28,67.5686
261.9,110.5,86.1,195.4,5.0,895.2,732.6,28,33.7188
168.88,42.22,124.25,158.33,10.83,1080.8,796.15,3,7.39808
186.2,124.1,0.0,185.7,0.0,1083.4,764.3,28,17.5968
173.54,50.05,173.53,164.77,6.47,1006.2,793.5,3,23.0768
277.0,117.0,91.0,191.0,7.0,946.0,666.0,28,43.5749
194.68,0.0,100.52,165.62,7.48,1006.4,905.9,3,12.4519
284.0,15.0,141.0,179.0,5.46,842.0,801.0,28,43.7335
139.6,209.4,0.0,192.0,0.0,1047.0,806.9,7,14.5893
157.0,214.0,152.0,200.0,9.0,819.0,704.0,28,33.0535
284.0,120.0,0.0,168.0,7.0,970.0,794.0,28,40.9342
212.57,0.0,100.39,159.35,10.37,1003.8,903.79,3,13.3345
251.37,0.0,118.27,192.94,5.75,1043.6,754.3,100,40.1482
381.4,0.0,0.0,185.7,0.0,1104.6,784.3,28,22.4893
362.6,189.0,0.0,164.9,11.6,944.7,755.8,56,77.2972
313.3,0.0,113.0,178.5,8.0,1001.9,688.7,28,36.8049
480.0,0.0,0.0,192.0,0.0,936.2,712.2,7,34.5696
284.0,119.7,0.0,168.3,7.2,970.4,794.2,28,40.9349
516.0,0.0,0.0,162.0,8.26,801.0,802.0,28,41.36856
298.1,0.0,107.5,163.6,12.8,953.2,784.0,28,35.8659
387.0,20.0,94.0,157.0,14.32,938.0,845.0,3,22.7527
375.0,93.8,0.0,126.6,23.4,852.1,992.6,3,28.9994
200.0,133.0,0.0,192.0,0.0,965.4,806.2,90,43.2508
385.0,0.0,0.0,186.0,0.0,966.0,763.0,7,23.2216
286.3,200.9,0.0,144.7,11.2,1004.6,803.7,56,72.9948
275.07,0.0,121.35,159.48,9.9,1053.6,777.5,100,58.60546
425.0,106.3,0.0,153.5,16.5,852.1,887.1,7,49.201
500.0,0.0,0.0,200.0,0.0,1125.0,613.0,14,36.9352
349.0,0.0,0.0,192.0,0.0,1047.0,806.0,90,39.4863
250.0,0.0,95.69,187.42,5.53,956.86,861.17,14,24.9177
277.05,0.0,97.39,160.6,11.83,973.9,875.61,3,23.1388
289.0,0.0,0.0,192.0,0.0,913.2,895.3,90,32.0682
231.75,0.0,121.62,173.96,6.72,1056.4,778.45,14,26.7724
203.5,135.7,0.0,185.7,0.0,1076.2,759.3,7,11.9576
389.9,189.0,0.0,145.9,22.0,944.7,755.8,7,59.095
322.5,148.6,0.0,185.8,8.5,951.0,709.5,28,52.4264
332.5,142.5,0.0,228.0,0.0,932.0,594.0,365,41.0528
133.1,210.2,0.0,195.7,3.1,949.4,795.3,28,28.938
214.9,53.8,121.89,155.63,9.61,1014.3,780.58,14,38.6038
313.0,0.0,113.0,178.0,8.0,1002.0,689.0,28,36.8042
313.0,145.0,0.0,127.0,8.0,1000.0,822.0,28,44.5195
321.0,164.0,0.0,190.0,5.0,870.0,774.0,28,57.2127
218.23,54.64,123.78,140.75,11.91,1075.7,792.67,3,27.4205
374.3,0.0,0.0,190.2,6.7,1013.2,730.4,28,39.0561
214.9,53.8,121.89,155.63,9.61,1014.3,780.58,3,18.016
251.37,0.0,118.27,188.45,5.75,1028.4,757.73,3,17.2231
446.0,24.0,79.0,162.0,11.61,967.0,712.0,3,35.3632
165.0,128.5,132.1,175.06,8.08,1005.8,746.6,3,19.4156
220.8,147.2,0.0,185.7,0.0,1055.0,744.3,7,13.089
446.0,24.0,79.0,162.0,11.61,967.0,712.0,28,57.0266
228.0,342.1,0.0,185.7,0.0,955.8,674.3,7,21.9171
198.6,132.4,0.0,192.0,0.0,978.4,825.5,28,28.0217
304.0,76.0,0.0,228.0,0.0,932.0,670.0,28,47.8138
288.4,121.0,0.0,177.4,7.0,907.9,829.5,28,42.1401
132.0,206.5,160.9,178.9,5.5,866.9,735.6,28,33.3065
393.0,0.0,0.0,192.0,0.0,940.6,785.6,90,48.8466
275.07,0.0,121.35,159.48,9.9,1053.6,777.5,14,38.7692
246.83,0.0,125.08,143.3,11.99,1086.8,800.89,56,60.3223
339.0,0.0,0.0,197.0,0.0,968.0,781.0,365,38.8933
186.2,124.1,0.0,185.7,0.0,1083.4,764.3,7,7.99585
246.83,0.0,125.08,143.3,11.99,1086.8,800.89,14,42.2166
425.0,106.3,0.0,153.5,16.5,852.1,887.1,91,65.1969
331.0,0.0,0.0,192.0,0.0,978.0,825.0,180,38.9968
233.81,0.0,94.58,197.89,4.567,947.04,852.16,3,10.3835
183.9,122.6,0.0,203.5,0.0,959.2,800.0,3,4.90355
166.8,250.2,0.0,203.5,0.0,975.6,692.6,90,43.5652
331.0,0.0,0.0,192.0,0.0,978.0,825.0,90,37.2317
148.0,0.0,182.0,181.0,15.0,839.0,884.0,28,15.5201
212.07,0.0,121.62,180.31,5.69,1057.6,779.32,14,20.9187
342.0,38.0,0.0,228.0,0.0,932.0,670.0,365,56.142
491.0,26.0,123.0,201.0,3.93,822.0,699.0,28,57.916
181.38,0.0,167.01,169.59,7.56,1055.6,777.8,28,27.7721
144.8,0.0,133.6,180.8,11.1,979.5,811.5,28,13.2021
212.0,141.3,0.0,203.5,0.0,973.4,750.0,90,39.7
310.0,0.0,0.0,192.0,0.0,1012.0,830.0,28,27.8273
229.68,0.0,118.16,195.23,6.13,1028.1,757.63,100,40.8583
333.0,17.5,163.0,167.0,17.9,996.0,652.0,28,47.2774
170.3,155.5,0.0,185.7,0.0,1026.6,724.3,28,25.7264
255.5,170.3,0.0,185.7,0.0,1026.6,724.3,28,32.0517
297.16,0.0,117.54,174.8,9.52,1022.8,753.45,100,56.7439
266.0,114.0,0.0,228.0,0.0,932.0,670.0,365,52.9083
298.0,0.0,107.0,186.0,6.0,879.0,815.0,28,42.6372
165.0,0.02,143.57,163.81,0.0,1005.6,900.9,56,36.5629
425.0,106.3,0.0,153.5,16.5,852.1,887.1,3,33.3982
252.0,0.0,0.0,185.0,0.0,1111.0,784.0,28,19.6914
166.09,0.0,163.27,176.46,4.49,1058.6,780.09,3,10.7627
213.72,98.05,24.51,181.71,6.86,1065.8,785.38,56,50.773
275.0,0.0,0.0,183.0,0.0,1088.0,808.0,7,14.2032
116.0,173.0,0.0,192.0,0.0,909.8,891.9,28,22.348
152.0,0.0,112.0,184.0,8.0,992.0,816.0,28,12.1761
387.0,20.0,94.0,157.0,13.93,938.0,845.0,28,46.6844
210.7,316.1,0.0,185.7,0.0,977.0,689.3,28,37.8136
251.37,0.0,118.27,192.94,5.75,1043.6,754.3,3,11.9831
252.5,0.0,0.0,185.7,0.0,1111.6,784.3,7,11.4839
277.0,0.0,0.0,191.0,0.0,968.0,856.0,360,33.7016
168.88,42.22,124.25,158.33,10.83,1080.8,796.15,28,31.1161
349.0,0.0,0.0,192.0,0.0,1056.0,809.0,90,40.6584
337.9,189.0,0.0,174.9,9.5,944.7,755.8,91,67.7962
387.0,20.0,94.0,157.0,11.61,938.0,845.0,3,34.7703
198.6,132.4,0.0,192.0,0.0,978.4,825.5,90,38.0742
251.37,0.0,118.27,188.45,5.75,1028.4,757.73,14,29.9302
167.0,75.4,167.0,164.03,7.91,1007.3,770.1,14,32.9018
139.6,209.4,0.0,192.0,0.0,1047.0,806.9,180,44.2078
183.9,122.6,0.0,203.5,0.0,959.2,800.0,90,32.5329
446.0,24.0,79.0,162.0,11.64,967.0,712.0,28,44.4229
252.31,0.0,98.75,146.25,14.17,987.76,889.01,3,21.7805
425.0,106.3,0.0,153.5,16.5,852.1,887.1,7,49.201
385.0,0.0,0.0,186.0,0.0,966.0,763.0,1,6.26734
491.0,26.0,123.0,201.0,3.93,822.0,699.0,3,29.549
181.38,0.0,167.01,169.59,7.56,1055.6,777.8,14,21.6013
238.2,158.8,0.0,185.7,0.0,1040.6,734.3,28,26.9137
158.8,238.2,0.0,185.7,0.0,1040.6,734.3,7,9.6175
178.03,129.8,118.6,179.94,3.57,1007.3,746.8,100,49.9939
297.16,0.0,117.54,174.8,9.52,1022.8,753.45,56,51.9589
251.81,0.0,99.94,146.14,12.35,1006.0,899.76,28,33.9429
475.0,0.0,0.0,228.0,0.0,932.0,594.0,270,42.1311
167.95,42.08,163.83,121.75,5.72,1058.7,780.11,28,24.242
313.8,0.0,112.6,169.9,10.1,925.3,782.9,28,38.461
359.0,19.0,141.0,154.0,10.91,942.0,801.0,7,38.6107
451.0,0.0,0.0,165.0,11.25,1030.0,745.0,28,78.8002
286.3,200.9,0.0,144.7,11.2,1004.6,803.7,91,76.8007
380.0,95.0,0.0,228.0,0.0,932.0,594.0,365,43.6983
525.0,0.0,0.0,189.0,0.0,1125.0,613.0,7,42.4235
331.0,0.0,0.0,192.0,0.0,1025.0,821.0,90,37.9143
151.8,178.1,138.7,167.5,18.3,944.0,694.6,28,36.3499
522.0,0.0,0.0,146.0,0.0,896.0,896.0,7,50.511
200.0,133.0,0.0,192.0,0.0,965.4,806.2,7,17.1659
500.0,0.0,0.0,200.0,0.0,1125.0,613.0,1,12.6381
425.0,106.3,0.0,153.5,16.5,852.1,887.1,3,33.3982
202.0,11.0,141.0,206.0,1.72,942.0,801.0,3,9.84966
236.0,0.0,0.0,193.0,0.0,968.0,885.0,180,24.1041
446.0,24.0,79.0,162.0,11.64,967.0,712.0,3,23.3457